Folder: Nonesuch_Formation/Data/XRD/Clay Peels

Note: README.md
# Nonesuch Formation
This repository contains data, code, and a manuscript presenting and analyzing data from the Nonesuch Formation

File: D08_1080.xy
5.02 12216.9
5.16 11815.3
5.3 11720.9
5.44 11195.1
5.58 11331.5
5.72 11386.8
5.86 11272.8
6 11230.0
6.14 11482.2
6.28 11655.6
6.42 11683.9
6.56 11880.9
6.7 12191.1
6.84 12758.1
6.98 13922.4
7.12 14941.4
7.26 13084.0
7.4 12639.1
7.54 12333.0
7.68 12276.2
7.82 12429.2
7.96 12517.4
8.1 12612.1
8.24 12733.7
8.38 13160.3
8.52 13537.9
8.66 13879.7
8.8 14493.1
8.94 15080.1
9.08 15894.2
9.22 16595.9
9.36 17356.5
9.5 18052.5
9.64 18757.2
9.78 20130.9
9.92 23235.4
10.06 29173.9
10.2 27829.4
10.34 15868.3
10.48 12867.6
10.62 11308.8
10.76 10430.5
10.9 10180.9
11.04 9597.0
11.18 9388.7
11.32 9070.5
11.46 9066.7
11.6 8873.9
11.74 8703.7
11.88 8529.0
12.02 8672.6
12.16 8586.5
12.3 8574.9
12.44 8369.9
12.58 8361.4
12.72 8411.2
12.86 8305.7
13 8455.2
13.14 8317.7
13.28 8470.8
13.42 8498.0
13.56 8727.5
13.7 9110.4
13.84 9925.3
13.98 11370.6
14.12 14738.4
14.26 20987.5
14.4 24120.5
14.54 13118.4
14.68 9911.6
14.82 8846.3
14.96 8241.7
15.1 7926.0
15.24 7662.9
15.38 7456.3
15.52 7394.7
15.66 7232.4
15.8 7146.6
15.94 7169.8
16.08 7012.0
16.22 6803.0
16.36 6692.4
16.5 6528.1
16.64 6568.3
16.78 6614.5
16.92 6413.1
17.06 6472.5
17.2 6310.3
17.34 6312.3
17.48 6189.6
17.62 6144.6
17.76 6264.7
17.9 6020.3
18.04 6144.1
18.18 6011.8
18.32 6111.0
18.46 6094.2
18.6 6148.8
18.74 6047.0
18.88 6084.6
19.02 6127.0
19.16 6194.4
19.3 6275.0
19.44 6243.6
19.58 6345.3
19.72 6455.6
19.86 6563.6
20 7077.6
20.14 7645.5
20.28 8826.3
20.42 11597.4
20.56 13627.1
20.7 9615.3
20.84 7824.9
20.98 7281.4
21.12 7105.6
21.26 7079.0
21.4 7502.1
21.54 8304.6
21.68 9333.7
21.82 7673.2
21.96 6183.0
22.1 5770.4
22.24 5396.7
22.38 5251.9
22.52 5052.7
22.66 4971.3
22.8 5109.1
22.94 5010.3
23.08 4851.5
23.22 4873.4
23.36 4628.3
23.5 4596.0
23.64 4581.7
23.78 4529.1
23.92 4554.1
24.06 4865.0
24.2 5112.3
24.34 4315.0
24.48 4310.4
24.62 4202.4
24.76 4206.4
24.9 4150.6
25.04 4212.7
25.18 4128.4
25.32 4217.4
25.46 4170.6
25.6 4164.4
25.74 4160.5
25.88 3989.0
26.02 3946.5
26.16 3987.6
26.3 3955.9
26.44 4074.4
26.58 4072.2
26.72 3929.8
26.86 3892.0
27 3899.9
27.14 4003.2
27.28 4057.4
27.42 3997.0
27.56 3995.7
27.7 4003.3
27.84 4093.6
27.98 4266.4
28.12 4402.3
28.26 4217.1
28.4 4443.9
28.54 4529.5
28.68 5111.1
28.82 6017.8
28.96 7919.5
29.1 10333.3
29.24 9295.8
29.38 6368.5
29.52 5248.5
29.66 4834.2
29.8 4600.7
29.94 4617.2
30.08 4494.1
30.22 4849.4
30.36 4965.0
30.5 5353.9
30.64 6179.8
30.78 8124.1
30.92 15537.7
31.06 17222.2
31.2 15247.6
31.34 10860.2
31.48 8632.2
31.62 7782.0
31.76 6986.0
31.9 6602.6
32.04 5911.2
32.18 5555.4
32.32 5498.8
32.46 5651.0
32.6 4514.9
32.74 4287.3
32.88 4071.9
33.02 3878.8
33.16 3824.6
33.3 3765.6
33.44 3625.9
33.58 3578.9
33.72 3552.7
33.86 3545.2
34 3495.5
34.14 3424.9
34.28 3387.2
34.42 3460.4
34.56 3454.1
34.7 3420.2
34.84 3319.2
34.98 3383.6
35.12 3346.8
35.26 3344.0
35.4 3332.6
35.54 3300.3
35.68 3301.7
35.82 3279.2
35.96 3305.5
36.1 3358.1
36.24 3580.2
36.38 3671.0
36.52 3862.4
36.66 3905.0
36.8 3830.8
36.94 3383.0
37.08 3272.0
37.22 3278.0
37.36 3238.4
37.5 3090.9
37.64 3110.2
37.78 3092.1
37.92 2949.7
38.06 2979.0
38.2 3040.5
38.34 3069.4
38.48 3536.6
38.62 3373.0
38.76 3004.3
38.9 2986.4
39.04 2953.0
39.18 2871.4
39.32 2853.0
39.46 2778.0
39.6 2815.7
39.74 2854.0
39.88 2788.4
40.02 2892.6
40.16 2915.8
40.3 2978.3
40.44 2966.2
40.58 2960.1
40.72 2998.1
40.86 2953.4
41 2851.4
41.14 2832.7
41.28 2880.4
41.42 2966.4
41.56 3005.6
41.7 3102.8
41.84 3408.0
41.98 3531.7
42.12 3093.4
42.26 2860.8
42.4 2665.1
42.54 2877.3
42.68 2801.0
42.82 2632.3
42.96 2552.1
43.1 2557.1
43.24 2550.6
43.38 2569.6
43.52 2604.3
43.66 2682.6
43.8 2643.4
43.94 2527.1
44.08 2637.5
44.22 2461.3
44.36 2517.2
44.5 2447.9
44.64 2434.0
44.78 2383.2
44.92 2420.6
44.98 2428.9

File: D08_1165b.xy
5.02 14059.0
5.16 14121.4
5.3 14158.0
5.44 14438.4
5.58 14471.6
5.72 14670.5
5.86 14763.2
6 15012.2
6.14 15462.0
6.28 16039.3
6.42 16122.7
6.56 16658.6
6.7 17594.8
6.84 18958.5
6.98 21284.5
7.12 23911.5
7.26 21201.8
7.4 19752.3
7.54 19195.2
7.68 19399.6
7.82 19719.3
7.96 20240.5
8.1 20671.1
8.24 21502.6
8.38 22194.4
8.52 22993.0
8.66 23716.3
8.8 24583.6
8.94 25501.9
9.08 26314.8
9.22 27022.8
9.36 27488.0
9.5 28313.4
9.64 29589.7
9.78 31455.8
9.92 35111.3
10.06 43740.7
10.2 55056.4
10.34 30511.5
10.48 22204.6
10.62 18858.3
10.76 16923.3
10.9 15777.5
11.04 14753.0
11.18 14238.2
11.32 13988.9
11.46 13403.4
11.6 13301.9
11.74 13021.7
11.88 13073.7
12.02 12968.5
12.16 12788.3
12.3 12748.3
12.44 12771.6
12.58 12963.2
12.72 13111.7
12.86 13276.1
13 13632.0
13.14 13650.4
13.28 14120.9
13.42 14587.8
13.56 15778.4
13.7 17261.9
13.84 19815.0
13.98 24711.3
14.12 33411.6
14.26 48301.4
14.4 60157.0
14.54 37134.7
14.68 22517.6
14.82 17309.3
14.96 14846.7
15.1 13085.5
15.24 12380.7
15.38 11849.1
15.52 11221.0
15.66 11052.2
15.8 10520.4
15.94 10435.0
16.08 10267.9
16.22 10098.3
16.36 9904.3
16.5 9810.7
16.64 9470.8
16.78 9597.4
16.92 9393.4
17.06 9366.7
17.2 9269.0
17.34 9110.6
17.48 9033.5
17.62 9052.7
17.76 8989.1
17.9 8719.4
18.04 8762.7
18.18 8725.4
18.32 8879.9
18.46 8776.3
18.6 8914.7
18.74 8880.6
18.88 8860.9
19.02 9118.1
19.16 8906.9
19.3 9108.6
19.44 9604.3
19.58 9791.0
19.72 10160.9
19.86 10608.4
20 11455.6
20.14 12605.7
20.28 15057.1
20.42 20240.7
20.56 27968.7
20.7 19808.2
20.84 15192.0
20.98 13294.2
21.12 12663.1
21.26 12888.1
21.4 13732.3
21.54 15035.2
21.68 16679.7
21.82 15385.8
21.96 11578.8
22.1 9860.7
22.24 9007.3
22.38 8509.5
22.52 7967.8
22.66 7983.7
22.8 7808.1
22.94 7710.3
23.08 7616.1
23.22 7241.3
23.36 6943.9
23.5 7000.4
23.64 6914.8
23.78 6752.5
23.92 6863.4
24.06 7283.7
24.2 9139.5
24.34 6654.1
24.48 6374.6
24.62 6341.6
24.76 6279.1
24.9 6306.7
25.04 6329.9
25.18 6126.7
25.32 6146.5
25.46 6347.7
25.6 6252.4
25.74 6262.7
25.88 6011.4
26.02 6304.5
26.16 6134.4
26.3 6239.8
26.44 6200.1
26.58 6231.2
26.72 6236.0
26.86 6059.1
27 6212.2
27.14 6119.3
27.28 6265.4
27.42 6355.4
27.56 6119.1
27.7 6361.1
27.84 6525.1
27.98 6726.5
28.12 7173.7
28.26 7404.7
28.4 8043.5
28.54 8882.1
28.68 10648.2
28.82 13717.0
28.96 19323.7
29.1 26884.8
29.24 28636.0
29.38 19509.5
29.52 13652.4
29.66 11403.2
29.8 10322.3
29.94 9457.0
30.08 9331.8
30.22 9566.8
30.36 9897.8
30.5 10579.2
30.64 12311.3
30.78 15225.6
30.92 28833.5
31.06 35468.0
31.2 32930.3
31.34 21737.0
31.48 17036.6
31.62 14338.8
31.76 13170.6
31.9 12700.9
32.04 11292.5
32.18 10782.3
32.32 10361.7
32.46 11161.2
32.6 8879.4
32.74 8308.2
32.88 7686.0
33.02 7191.1
33.16 6933.9
33.3 6706.2
33.44 6391.7
33.58 6307.1
33.72 6222.1
33.86 6044.6
34 5994.6
34.14 5808.8
34.28 5879.9
34.42 5877.4
34.56 5711.9
34.7 5862.8
34.84 5764.8
34.98 5887.4
35.12 5726.6
35.26 5603.2
35.4 5602.7
35.54 5750.9
35.68 5712.4
35.82 5847.7
35.96 5863.5
36.1 5925.4
36.24 6332.9
36.38 6713.2
36.52 6928.5
36.66 7277.2
36.8 7502.4
36.94 6459.2
37.08 5797.8
37.22 5707.3
37.36 5434.0
37.5 5300.5
37.64 5092.0
37.78 5114.9
37.92 4994.6
38.06 4955.3
38.2 4856.0
38.34 4789.5
38.48 4890.9
38.62 4840.6
38.76 4843.9
38.9 4742.0
39.04 4676.3
39.18 4654.4
39.32 4578.8
39.46 4560.7
39.6 4503.3
39.74 4543.2
39.88 4534.9
40.02 4597.0
40.16 4608.8
40.3 4743.8
40.44 4796.3
40.58 4717.2
40.72 4923.9
40.86 4854.9
41 4684.3
41.14 4699.5
41.28 4687.5
41.42 4840.9
41.56 4970.2
41.7 5274.4
41.84 6130.1
41.98 6260.4
42.12 5508.1
42.26 4625.3
42.4 4370.0
42.54 4525.0
42.68 4658.5
42.82 4253.6
42.96 4204.4
43.1 4082.9
43.24 4120.1
43.38 4120.4
43.52 4178.4
43.66 4083.7
43.8 4105.1
43.94 4037.3
44.08 4152.9
44.22 4017.2
44.36 3924.9
44.5 3919.1
44.64 3842.8
44.78 3769.3
44.92 3974.3
44.98 3816.1